onset	duration	trial_type	sim_level	pres_num	lag	response	fix_count
3.2	2.5	foil	n/a	1	0	new	3
7.7	2.5	foil	n/a	1	0	new	6
12.2	2.5	repeat	n/a	1	12	new	10
16.7	2.5	repeat	n/a	1	4	new	5
21.2	2.5	repeat	n/a	1	40	new	9
25.7	2.5	foil	n/a	1	0	new	3
30.2	2.5	repeat	n/a	1	40	new	5
34.7	2.5	repeat	n/a	2	4	old	6
39.2	2.5	foil	n/a	1	0	new	4
43.7	2.5	foil	n/a	1	0	new	7
48.2	2.5	foil	n/a	1	0	new	5
52.7	2.5	foil	n/a	1	0	new	5
57.2	2.5	foil	n/a	1	0	new	4
61.7	2.5	lure	low	1	40	new	6
66.2	2.5	repeat	n/a	2	12	similar	8
70.7	2.5	repeat	n/a	1	4	new	4
75.2	2.5	lure	high	1	40	new	4
79.7	2.5	foil	n/a	1	0	new	7
84.2	2.5	repeat	n/a	1	40	new	8
88.7	2.5	repeat	n/a	2	4	old	3
93.2	2.5	repeat	n/a	1	4	new	8
97.7	2.5	foil	n/a	1	0	new	24
102.2	2.5	repeat	n/a	1	12	new	12
106.7	2.5	foil	n/a	1	0	new	5
111.2	2.5	repeat	n/a	2	4	old	5
115.7	2.5	foil	n/a	1	0	new	5
120.2	2.5	foil	n/a	1	0	new	7
124.7	2.5	foil	n/a	1	0	new	5
129.2	2.5	repeat	n/a	1	12	new	6
133.7	2.5	repeat	n/a	1	12	new	5
138.2	2.5	foil	n/a	1	0	new	5
142.7	2.5	repeat	n/a	1	12	new	2
147.2	2.5	lure	high	1	4	new	5
151.7	2.5	foil	n/a	1	0	new	7
156.2	2.5	repeat	n/a	2	12	similar	8
160.7	2.5	foil	n/a	1	0	new	10
165.2	2.5	lure	high	2	4	similar	6
169.7	2.5	foil	n/a	1	0	new	7
174.2	2.5	lure	low	1	40	new	9
178.7	2.5	lure	low	1	40	new	4
183.2	2.5	repeat	n/a	2	12	old	8
187.7	2.5	repeat	n/a	2	12	similar	9
192.2	2.5	lure	high	1	40	new	9
196.7	2.5	repeat	n/a	2	12	old	4
201.2	2.5	repeat	n/a	2	40	old	7
205.7	2.5	lure	low	1	4	new	6
210.2	2.5	repeat	n/a	2	40	old	8
214.7	2.5	foil	n/a	1	0	new	7
219.2	2.5	repeat	n/a	1	40	new	9
223.7	2.5	lure	low	2	4	similar	8
228.2	2.5	foil	n/a	1	0	new	9
232.7	2.5	foil	n/a	1	0	new	6
237.2	2.5	lure	low	1	12	new	6
241.7	2.5	lure	low	2	40	similar	6
246.2	2.5	lure	high	1	12	new	6
250.7	2.5	lure	low	1	4	new	8
255.2	2.5	lure	high	2	40	similar	7
259.7	2.5	lure	high	1	4	new	7
264.2	2.5	repeat	n/a	2	40	new	5
268.7	2.5	lure	low	2	4	similar	8
273.2	2.5	foil	n/a	1	0	new	7
277.7	2.5	lure	high	2	4	similar	5
282.2	2.5	repeat	n/a	1	40	new	6
286.7	2.5	lure	low	1	12	new	3
291.2	2.5	lure	low	2	12	new	9
295.7	2.5	foil	n/a	1	0	new	6
300.2	2.5	lure	high	2	12	new	5
304.7	2.5	lure	high	1	40	new	5
309.2	2.5	lure	high	1	4	new	7
313.7	2.5	foil	n/a	1	0	new	4
318.2	2.5	foil	n/a	1	0	new	6
322.7	2.5	foil	n/a	1	0	new	3
327.2	2.5	lure	high	2	4	similar	7
331.7	2.5	repeat	n/a	1	12	new	7
336.2	2.5	repeat	n/a	1	40	new	7
340.7	2.5	lure	low	2	12	new	5
345.2	2.5	foil	n/a	1	0	new	2
349.7	2.5	lure	high	1	12	new	6
354.2	2.5	lure	low	2	40	new	9
358.7	2.5	lure	low	2	40	new	8
363.2	2.5	foil	n/a	1	0	new	6
367.7	2.5	lure	low	1	12	new	9
372.2	2.5	lure	high	2	40	similar	7
376.7	2.5	foil	n/a	1	0	new	9
381.2	2.5	foil	n/a	1	0	new	7
385.7	2.5	repeat	n/a	2	12	old	7
390.2	2.5	lure	high	1	12	new	4
394.7	2.5	foil	n/a	1	0	new	7
399.2	2.5	repeat	n/a	2	40	old	6
403.7	2.5	lure	high	2	12	similar	5
408.2	2.5	repeat	n/a	1	4	new	5
412.7	2.5	lure	low	1	4	new	6
417.2	2.5	foil	n/a	1	0	new	4
421.7	2.5	lure	low	2	12	new	9
426.2	2.5	repeat	n/a	2	4	old	5
430.7	2.5	lure	low	2	4	new	8
435.2	2.5	foil	n/a	1	0	new	2
439.7	2.5	foil	n/a	1	0	new	6
444.2	2.5	lure	high	2	12	old	9
448.7	2.5	repeat	n/a	1	4	new	3
453.2	2.5	foil	n/a	1	0	new	7
457.7	2.5	foil	n/a	1	0	new	8
462.2	2.5	repeat	n/a	2	40	old	7
466.7	2.5	repeat	n/a	2	4	old	6
471.2	2.5	foil	n/a	1	0	new	4
475.7	2.5	foil	n/a	1	0	new	7
480.2	2.5	foil	n/a	1	0	new	6
484.7	2.5	lure	high	2	40	similar	6
489.2	2.5	foil	n/a	1	0	new	6
493.7	2.5	repeat	n/a	1	4	new	4
498.2	2.5	foil	n/a	1	0	new	6
502.7	2.5	foil	n/a	1	0	new	6
507.2	2.5	foil	n/a	1	0	new	7
511.7	2.5	repeat	n/a	2	4	old	5
516.2	2.5	repeat	n/a	2	40	old	4
520.7	2.5	foil	n/a	1	0	new	8
